##TITLE=
##JCAMP-DX=4.24
##DATA TYPE= LINK
##ORIGIN=
##OWNER=
##BLOCKS=2
##TITLE=
##JCAMP-DX=4.24
##DATA TYPE=INFRARED SPECTRUM
##ORIGIN=
##OWNER=
##SAMPLE DESCRIPTION=
##SAMPLING PROCEDURE=
##DATA PROCESSING=
##XUNITS=1/CM
##YUNITS=ABSORBANCE
##XFACTOR= 1.0
##YFACTOR= 0.000001
##FIRSTX=11995.21
##LASTX=3999.691
##FIRSTY=  0.032112
##MINY=  0.032038
##MAXY=  0.529274
##NPOINTS=2074
##XYPOINTS= (XY..XY)
  11995.21,    32112;   11991.36,    32505;   11987.5,    32727;   11983.64,    33481; 
  11979.79,    33798;   11975.93,    33076;   11972.07,    32550;   11968.22,    33189; 
  11964.36,    34209;   11960.5,    34334;   11956.64,    33779;   11952.79,    33532; 
  11948.93,    33671;   11945.07,    33749;   11941.22,    33071;   11937.36,    32037; 
  11933.5,    32481;   11929.65,    34003;   11925.79,    34338;   11921.93,    33423; 
  11918.08,    32760;   11914.22,    33123;   11910.36,    34266;   11906.5,    35059; 
  11902.65,    34598;   11898.79,    33495;   11894.93,    33248;   11891.08,    34046; 
  11887.22,    34397;   11883.36,    34034;   11879.51,    34251;   11875.65,    34795; 
  11871.79,    34599;   11867.93,    34165;   11864.08,    34094;   11860.22,    33945; 
  11856.36,    33747;   11852.51,    34062;   11848.65,    34899;   11844.79,    35760; 
  11840.94,    36143;   11837.08,    35971;   11833.22,    35325;   11829.36,    34500; 
  11825.51,    34331;   11821.65,    34834;   11817.79,    34951;   11813.94,    34685; 
  11810.08,    34963;   11806.22,    35589;   11802.37,    35911;   11798.51,    36050; 
  11794.65,    35980;   11790.79,    35262;   11786.94,    33967;   11783.08,    33030; 
  11779.22,    32798;   11775.37,    32695;   11771.51,    32967;   11767.65,    33874; 
  11763.8,    34913;   11759.94,    35888;   11756.08,    36478;   11752.22,    36323; 
  11748.37,    35975;   11744.51,    36169;   11740.65,    36505;   11736.8,    36334; 
  11732.94,    36290;   11729.08,    36669;   11725.23,    36621;   11721.37,    36252; 
  11717.51,    36179;   11713.66,    36089;   11709.8,    35646;   11705.94,    35219; 
  11702.08,    35332;   11698.23,    35760;   11694.37,    36100;   11690.51,    36456; 
  11686.66,    36448;   11682.8,    36059;   11678.94,    36019;   11675.08,    36061; 
  11671.23,    35798;   11667.37,    35744;   11663.51,    35995;   11659.66,    36224; 
  11655.8,    36749;   11651.94,    37701;   11648.09,    38057;   11644.23,    37255; 
  11640.37,    36244;   11636.52,    35966;   11632.66,    36374;   11628.8,    36598; 
  11624.94,    35973;   11621.09,    35370;   11617.23,    35622;   11613.37,    36135; 
  11609.52,    36631;   11605.66,    37049;   11601.8,    37024;   11597.95,    36870; 
  11594.09,    36858;   11590.23,    36842;   11586.38,    36662;   11582.52,    36307; 
  11578.66,    36270;   11574.8,    36705;   11570.95,    37013;   11567.09,    36945; 
  11563.23,    36835;   11559.38,    36671;   11555.52,    36204;   11551.66,    35979; 
  11547.8,    36592;   11543.95,    37530;   11540.09,    37977;   11536.23,    37822; 
  11532.38,    37542;   11528.52,    37446;   11524.66,    37324;   11520.81,    37032; 
  11516.95,    36667;   11513.09,    36383;   11509.24,    36501;   11505.38,    36974; 
  11501.52,    37305;   11497.66,    37509;   11493.81,    37790;   11489.95,    37975; 
  11486.09,    38147;   11482.24,    38493;   11478.38,    38641;   11474.52,    38184; 
  11470.67,    37514;   11466.81,    37357;   11462.95,    37504;   11459.09,    37201; 
  11455.24,    36837;   11451.38,    37482;   11447.52,    38790;   11443.67,    39327; 
  11439.81,    39006;   11435.95,    39005;   11432.1,    39489;   11428.24,    39693; 
  11424.38,    39452;   11420.52,    39030;   11416.67,    38925;   11412.81,    39567; 
  11408.95,    40162;   11405.1,    39868;   11401.24,    39126;   11397.38,    38595; 
  11393.53,    38723;   11389.67,    39325;   11385.81,    39804;   11381.96,    40207; 
  11378.1,    40289;   11374.24,    39824;   11370.38,    39525;   11366.53,    39542; 
  11362.67,    39525;   11358.81,    39827;   11354.96,    40569;   11351.1,    41074; 
  11347.24,    40998;   11343.38,    40604;   11339.53,    40283;   11335.67,    40301; 
  11331.81,    40446;   11327.96,    40384;   11324.1,    40046;   11320.24,    39555; 
  11316.39,    39225;   11312.53,    39194;   11308.67,    39385;   11304.82,    39569; 
  11300.96,    39624;   11297.1,    40068;   11293.24,    41071;   11289.39,    41810; 
  11285.53,    41821;   11281.67,    41570;   11277.82,    41537;   11273.96,    41653; 
  11270.1,    41505;   11266.25,    41111;   11262.39,    41141;   11258.53,    41715; 
  11254.67,    41914;   11250.82,    41285;   11246.96,    40785;   11243.1,    41086; 
  11239.25,    41391;   11235.39,    41066;   11231.53,    40709;   11227.68,    40837; 
  11223.82,    40934;   11219.96,    40677;   11216.1,    40836;   11212.25,    41708; 
  11208.39,    42330;   11204.53,    42221;   11200.68,    42048;   11196.82,    42092; 
  11192.96,    41910;   11189.11,    41699;   11185.25,    41982;   11181.39,    42388; 
  11177.53,    42490;   11173.68,    42425;   11169.82,    42194;   11165.96,    41833; 
  11162.11,    41780;   11158.25,    42211;   11154.39,    42477;   11150.54,    42082; 
  11146.68,    41697;   11142.82,    42070;   11138.96,    42841;   11135.11,    43132; 
  11131.25,    42803;   11127.39,    42533;   11123.54,    42731;   11119.68,    42997; 
  11115.82,    42797;   11111.97,    42395;   11108.11,    42415;   11104.25,    42878; 
  11100.39,    43336;   11096.54,    43418;   11092.68,    43415;   11088.82,    43784; 
  11084.97,    44034;   11081.11,    43727;   11077.25,    43449;   11073.4,    43342; 
  11069.54,    43021;   11065.68,    42950;   11061.83,    43447;   11057.97,    43748; 
  11054.11,    43515;   11050.25,    43416;   11046.4,    43819;   11042.54,    44464; 
  11038.68,    44886;   11034.83,    44463;   11030.97,    43494;   11027.11,    43259; 
  11023.25,    43923;   11019.4,    44538;   11015.54,    44784;   11011.68,    44750; 
  11007.83,    44393;   11003.97,    44177;   11000.11,    44363;   10996.26,    44313; 
  10992.4,    43978;   10988.54,    44185;   10984.69,    44953;   10980.83,    45229; 
  10976.97,    44812;   10973.11,    44759;   10969.26,    45184;   10965.4,    45265; 
  10961.54,    45056;   10957.69,    45107;   10953.83,    45454;   10949.97,    45689; 
  10946.12,    45444;   10942.26,    44849;   10938.4,    44597;   10934.54,    45044; 
  10930.69,    45472;   10926.83,    45395;   10922.97,    45300;   10919.12,    45450; 
  10915.26,    45773;   10911.4,    46154;   10907.55,    46257;   10903.69,    46138; 
  10899.83,    46058;   10895.97,    45955;   10892.12,    45892;   10888.26,    46053; 
  10884.4,    46220;   10880.55,    45972;   10876.69,    45532;   10872.83,    45444; 
  10868.98,    45717;   10865.12,    46206;   10861.26,    46725;   10857.41,    46891; 
  10853.55,    46626;   10849.69,    46260;   10845.83,    46135;   10841.98,    46413; 
  10838.12,    47010;   10834.26,    47516;   10830.41,    47554;   10826.55,    47233; 
  10822.69,    46858;   10818.83,    46546;   10814.98,    46314;   10811.12,    46409; 
  10807.26,    47001;   10803.41,    47558;   10799.55,    47730;   10795.69,    47897; 
  10791.84,    47981;   10787.98,    47631;   10784.12,    47113;   10780.27,    46829; 
  10776.41,    47041;   10772.55,    47420;   10768.69,    47336;   10764.84,    47329; 
  10760.98,    47813;   10757.12,    47897;   10753.27,    47418;   10749.41,    47228; 
  10745.55,    47523;   10741.7,    47909;   10737.84,    48292;   10733.98,    48694; 
  10730.13,    48920;   10726.27,    48994;   10722.41,    48949;   10718.55,    48687; 
  10714.7,    48520;   10710.84,    48620;   10706.98,    48820;   10703.13,    49068; 
  10699.27,    49323;   10695.41,    49382;   10691.55,    48871;   10687.7,    48251; 
  10683.84,    48459;   10679.98,    49051;   10676.13,    49365;   10672.27,    49553; 
  10668.41,    49536;   10664.56,    49327;   10660.7,    49244;   10656.84,    49308; 
  10652.99,    49398;   10649.13,    49573;   10645.27,    49831;   10641.41,    49924; 
  10637.56,    49813;   10633.7,    49682;   10629.84,    49527;   10625.99,    49440; 
  10622.13,    49539;   10618.27,    49730;   10614.42,    50022;   10610.56,    50283; 
  10606.7,    50415;   10602.84,    50564;   10598.99,    50456;   10595.13,    49976; 
  10591.27,    49741;   10587.42,    50023;   10583.56,    50242;   10579.7,    50088; 
  10575.85,    50146;   10571.99,    50725;   10568.13,    51356;   10564.27,    51621; 
  10560.42,    51424;   10556.56,    51010;   10552.7,    50704;   10548.85,    50490; 
  10544.99,    50364;   10541.13,    50537;   10537.28,    51015;   10533.42,    51390; 
  10529.56,    51325;   10525.71,    51161;   10521.85,    51482;   10517.99,    52121; 
  10514.13,    52358;   10510.28,    52136;   10506.42,    52071;   10502.56,    52197; 
  10498.71,    52061;   10494.85,    51713;   10490.99,    51625;   10487.13,    51951; 
  10483.28,    52237;   10479.42,    52305;   10475.56,    52346;   10471.71,    52251; 
  10467.85,    52145;   10463.99,    52270;   10460.14,    52461;   10456.28,    52623; 
  10452.42,    52789;   10448.56,    52736;   10444.71,    52386;   10440.85,    52219; 
  10436.99,    52379;   10433.14,    52478;   10429.28,    52599;   10425.42,    52790; 
  10421.57,    52733;   10417.71,    52755;   10413.85,    53208;   10410,    53532; 
  10406.14,    53292;   10402.28,    52780;   10398.42,    52376;   10394.57,    52325; 
  10390.71,    52701;   10386.85,    53281;   10383,    53768;   10379.14,    53961; 
  10375.28,    53845;   10371.43,    53728;   10367.57,    53812;   10363.71,    53950; 
  10359.85,    54022;   10356,    54110;   10352.14,    54322;   10348.28,    54407; 
  10344.43,    54134;   10340.57,    53871;   10336.71,    53883;   10332.86,    54039; 
  10329,    54384;   10325.14,    54930;   10321.28,    55336;   10317.43,    55284; 
  10313.57,    54811;   10309.71,    54361;   10305.86,    54385;   10302,    54779; 
  10298.14,    55117;   10294.29,    55161;   10290.43,    54959;   10286.57,    54837; 
  10282.71,    54926;   10278.86,    54875;   10275,    54755;   10271.14,    55135; 
  10267.29,    55769;   10263.43,    55926;   10259.57,    55584;   10255.72,    55179; 
  10251.86,    55059;   10248,    55276;   10244.14,    55554;   10240.29,    55640; 
  10236.43,    55603;   10232.57,    55810;   10228.72,    56339;   10224.86,    56664; 
  10221,    56577;   10217.15,    56496;   10213.29,    56648;   10209.43,    56938; 
  10205.58,    57115;   10201.72,    57006;   10197.86,    56787;   10194,    56701; 
  10190.15,    56842;   10186.29,    57180;   10182.43,    57509;   10178.58,    57471; 
  10174.72,    57092;   10170.86,    56821;   10167,    56754;   10163.15,    56861; 
  10159.29,    57142;   10155.43,    57347;   10151.58,    57440;   10147.72,    57505; 
  10143.86,    57492;   10140.01,    57561;   10136.15,    57789;   10132.29,    57814; 
  10128.44,    57539;   10124.58,    57356;   10120.72,    57437;   10116.86,    57722; 
  10113.01,    58071;   10109.15,    58253;   10105.29,    58279;   10101.44,    58320; 
  10097.58,    58391;   10093.72,    58449;   10089.87,    58569;   10086.01,    58811; 
  10082.15,    58961;   10078.29,    58750;   10074.44,    58443;   10070.58,    58548; 
  10066.72,    58941;   10062.87,    59083;   10059.01,    58921;   10055.15,    58890; 
  10051.3,    59153;   10047.44,    59364;   10043.58,    59258;   10039.72,    59046; 
  10035.87,    59040;   10032.01,    59279;   10028.15,    59534;   10024.3,    59533; 
  10020.44,    59485;   10016.58,    59796;   10012.73,    60186;   10008.87,    60245; 
  10005.01,    60092;   10001.16,    59946;   9997.298,    60002;   9993.441,    60253; 
  9989.584,    60448;   9985.727,    60504;   9981.87,    60410;   9978.014,    60246; 
  9974.156,    60217;   9970.299,    60345;   9966.442,    60654;   9962.585,    61118; 
  9958.729,    61374;   9954.871,    61264;   9951.015,    61073;   9947.157,    60933; 
  9943.301,    60775;   9939.443,    60824;   9935.586,    61243;   9931.729,    61672; 
  9927.872,    61971;   9924.016,    62356;   9920.158,    62591;   9916.302,    62395; 
  9912.444,    62048;   9908.588,    61837;   9904.73,    61757;   9900.873,    61832; 
  9897.017,    62154;   9893.159,    62432;   9889.303,    62309;   9885.445,    62105; 
  9881.589,    62100;   9877.731,    62176;   9873.875,    62324;   9870.018,    62377; 
  9866.16,    62397;   9862.304,    62751;   9858.447,    63149;   9854.59,    63159; 
  9850.732,    62954;   9846.876,    62855;   9843.019,    62993;   9839.162,    63233; 
  9835.305,    63259;   9831.447,    63053;   9827.591,    63072;   9823.734,    63518; 
  9819.877,    63951;   9816.02,    63983;   9812.163,    63802;   9808.306,    63768; 
  9804.449,    63853;   9800.592,    63937;   9796.734,    64137;   9792.878,    64380; 
  9789.021,    64451;   9785.164,    64347;   9781.307,    64269;   9777.45,    64412; 
  9773.593,    64590;   9769.736,    64556;   9765.879,    64472;   9762.022,    64487; 
  9758.165,    64454;   9754.309,    64307;   9750.451,    64371;   9746.594,    64764; 
  9742.737,    64929;   9738.88,    64724;   9735.023,    64776;   9731.166,    65045; 
  9727.31,    64953;   9723.452,    64773;   9719.596,    64987;   9715.738,    65359; 
  9711.881,    65510;   9708.024,    65339;   9704.168,    65164;   9700.311,    65343; 
  9696.453,    65705;   9692.597,    66024;   9688.739,    66278;   9684.883,    66378; 
  9681.025,    66364;   9677.168,    66422;   9673.312,    66536;   9669.455,    66587; 
  9665.598,    66630;   9661.74,    66720;   9657.884,    66796;   9654.026,    66845; 
  9650.17,    66878;   9646.313,    66868;   9642.455,    66895;   9638.599,    67118; 
  9634.742,    67414;   9630.885,    67521;   9627.027,    67582;   9623.171,    67768; 
  9619.313,    67842;   9615.457,    67726;   9611.6,    67687;   9607.743,    67836; 
  9603.886,    68049;   9600.029,    68193;   9596.172,    68209;   9592.314,    68174; 
  9588.458,    68214;   9584.601,    68303;   9580.744,    68360;   9576.887,    68458; 
  9573.03,    68645;   9569.173,    68799;   9565.316,    68894;   9561.459,    68968; 
  9557.602,    68936;   9553.745,    68878;   9549.889,    69038;   9546.031,    69226; 
  9542.174,    69165;   9538.317,    69110;   9534.46,    69231;   9530.604,    69387; 
  9526.746,    69557;   9522.889,    69738;   9519.032,    69850;   9515.176,    69834; 
  9511.318,    69798;   9507.461,    69971;   9503.604,    70227;   9499.747,    70255; 
  9495.891,    70098;   9492.033,    69962;   9488.177,    70043;   9484.319,    70337; 
  9480.463,    70522;   9476.605,    70610;   9472.748,    70822;   9468.892,    70982; 
  9465.034,    70961;   9461.178,    70850;   9457.32,    70707;   9453.464,    70685; 
  9449.606,    70936;   9445.75,    71301;   9441.893,    71445;   9438.035,    71245; 
  9434.179,    70974;   9430.322,    71060;   9426.465,    71426;   9422.607,    71692; 
  9418.751,    71887;   9414.894,    72046;   9411.037,    72013;   9407.18,    71927; 
  9403.322,    71994;   9399.466,    72122;   9395.609,    72226;   9391.752,    72464; 
  9387.895,    72793;   9384.038,    72838;   9380.181,    72599;   9376.324,    72472; 
  9372.467,    72579;   9368.609,    72819;   9364.753,    73078;   9360.896,    73178; 
  9357.039,    73109;   9353.182,    73102;   9349.325,    73220;   9345.468,    73210; 
  9341.611,    73150;   9337.754,    73265;   9333.897,    73367;   9330.04,    73429; 
  9326.184,    73653;   9322.326,    73970;   9318.469,    74188;   9314.612,    74200; 
  9310.755,    74046;   9306.898,    73994;   9303.041,    74244;   9299.185,    74542; 
  9295.327,    74652;   9291.471,    74716;   9287.613,    74794;   9283.756,    74818; 
  9279.899,    74823;   9276.043,    74871;   9272.186,    74944;   9268.328,    75045; 
  9264.472,    75188;   9260.614,    75318;   9256.758,    75480;   9252.9,    75636; 
  9249.043,    75643;   9245.187,    75594;   9241.33,    75588;   9237.473,    75607; 
  9233.615,    75742;   9229.759,    76024;   9225.901,    76199;   9222.045,    76195; 
  9218.188,    76310;   9214.33,    76527;   9210.474,    76498;   9206.617,    76290; 
  9202.76,    76316;   9198.902,    76538;   9195.046,    76674;   9191.188,    76876; 
  9187.332,    77167;   9183.475,    77156;   9179.618,    76899;   9175.761,    76857; 
  9171.904,    77007;   9168.047,    77055;   9164.189,    77084;   9160.333,    77252; 
  9156.476,    77477;   9152.619,    77646;   9148.762,    77691;   9144.905,    77584; 
  9141.048,    77536;   9137.191,    77751;   9133.334,    78064;   9129.477,    78264; 
  9125.62,    78292;   9121.764,    78192;   9117.906,    78158;   9114.049,    78265; 
  9110.192,    78403;   9106.335,    78573;   9102.479,    78793;   9098.621,    78915; 
  9094.764,    78882;   9090.907,    78867;   9087.051,    79048;   9083.193,    79361; 
  9079.336,    79529;   9075.479,    79512;   9071.622,    79560;   9067.766,    79666; 
  9063.908,    79691;   9060.051,    79758;   9056.194,    79957;   9052.338,    80180; 
  9048.48,    80328;   9044.623,    80376;   9040.767,    80381;   9036.909,    80379; 
  9033.053,    80430;   9029.195,    80668;   9025.339,    81031;   9021.481,    81253; 
  9017.625,    81314;   9013.768,    81461;   9009.91,    81607;   9006.054,    81485; 
  9002.196,    81267;   8998.34,    81262;   8994.482,    81460;   8990.626,    81636; 
  8986.769,    81693;   8982.912,    81743;   8979.055,    81886;   8975.197,    82054; 
  8971.341,    82118;   8967.484,    82167;   8963.627,    82320;   8959.77,    82509; 
  8955.913,    82632;   8952.056,    82665;   8948.199,    82679;   8944.342,    82682; 
  8940.484,    82661;   8936.628,    82786;   8932.771,    83109;   8928.914,    83405; 
  8925.057,    83536;   8921.2,    83579;   8917.343,    83595;   8913.486,    83680; 
  8909.629,    83931;   8905.771,    84221;   8901.915,    84356;   8898.059,    84347; 
  8894.201,    84315;   8890.344,    84334;   8886.487,    84448;   8882.63,    84617; 
  8878.773,    84737;   8874.916,    84746;   8871.06,    84668;   8867.202,    84696; 
  8863.346,    84980;   8859.488,    85338;   8855.631,    85455;   8851.774,    85419; 
  8847.917,    85551;   8844.061,    85703;   8840.203,    85720;   8836.347,    85754; 
  8832.489,    85798;   8828.633,    85953;   8824.775,    86302;   8820.918,    86490; 
  8817.062,    86376;   8813.205,    86301;   8809.348,    86413;   8805.49,    86559; 
  8801.634,    86694;   8797.776,    86866;   8793.92,    87106;   8790.063,    87364; 
  8786.205,    87502;   8782.349,    87556;   8778.492,    87694;   8774.635,    87846; 
  8770.777,    87846;   8766.921,    87774;   8763.063,    87838;   8759.207,    88043; 
  8755.35,    88229;   8751.492,    88355;   8747.636,    88451;   8743.779,    88549; 
  8739.922,    88791;   8736.064,    89122;   8732.208,    89281;   8728.351,    89283; 
  8724.494,    89271;   8720.637,    89287;   8716.78,    89463;   8712.923,    89843; 
  8709.066,    90253;   8705.209,    90488;   8701.352,    90466;   8697.495,    90341; 
  8693.638,    90345;   8689.781,    90534;   8685.924,    90747;   8682.067,    90849; 
  8678.21,    90959;   8674.354,    91103;   8670.496,    91131;   8666.639,    91118; 
  8662.782,    91176;   8658.926,    91267;   8655.068,    91353;   8651.211,    91444; 
  8647.354,    91614;   8643.497,    91816;   8639.641,    91965;   8635.783,    92145; 
  8631.926,    92389;   8628.069,    92605;   8624.213,    92696;   8620.355,    92679; 
  8616.498,    92779;   8612.642,    93082;   8608.784,    93345;   8604.928,    93347; 
  8601.07,    93222;   8597.213,    93252;   8593.356,    93449;   8589.5,    93703; 
  8585.643,    93919;   8581.785,    93932;   8577.929,    93884;   8574.071,    94036; 
  8570.215,    94212;   8566.357,    94235;   8562.501,    94317;   8558.644,    94534; 
  8554.787,    94727;   8550.93,    94914;   8547.072,    95136;   8543.216,    95293; 
  8539.359,    95363;   8535.502,    95433;   8531.645,    95559;   8527.788,    95672; 
  8523.931,    95734;   8520.074,    95846;   8516.217,    96016;   8512.359,    96118; 
  8508.503,    96194;   8504.646,    96410;   8500.789,    96703;   8496.932,    96949; 
  8493.075,    97100;   8489.218,    97117;   8485.361,    97125;   8481.504,    97230; 
  8477.646,    97360;   8473.79,    97494;   8469.934,    97694;   8466.076,    97957; 
  8462.219,    98210;   8458.362,    98453;   8454.505,    98618;   8450.648,    98611; 
  8446.791,    98601;   8442.935,    98771;   8439.077,    99050;   8435.221,    99335; 
  8431.363,    99602;   8427.506,    99813;   8423.649,    99966;   8419.792,   100102; 
  8415.936,   100248;   8412.078,   100455;   8408.222,   100714;   8404.364,   100901; 
  8400.508,   100922;   8396.65,   100889;   8392.793,   100986;   8388.937,   101187; 
  8385.08,   101361;   8381.223,   101504;   8377.365,   101672;   8373.509,   101778; 
  8369.651,   101748;   8365.795,   101700;   8361.938,   101774;   8358.08,   102011; 
  8354.224,   102293;   8350.367,   102434;   8346.51,   102460;   8342.652,   102520; 
  8338.796,   102634;   8334.938,   102772;   8331.082,   102947;   8327.225,   103108; 
  8323.367,   103192;   8319.511,   103201;   8315.654,   103181;   8311.797,   103222; 
  8307.939,   103373;   8304.083,   103615;   8300.226,   103841;   8296.369,   103921; 
  8292.512,   103892;   8288.655,   103899;   8284.798,   104033;   8280.941,   104321; 
  8277.084,   104684;   8273.227,   105002;   8269.37,   105157;   8265.513,   105093; 
  8261.656,   104983;   8257.799,   105038;   8253.942,   105288;   8250.085,   105616; 
  8246.229,   105815;   8242.371,   105906;   8238.514,   106045;   8234.657,   106124; 
  8230.801,   106128;   8226.943,   106268;   8223.086,   106499;   8219.229,   106600; 
  8215.372,   106623;   8211.516,   106729;   8207.658,   106879;   8203.801,   107010; 
  8199.944,   107152;   8196.088,   107326;   8192.23,   107492;   8188.373,   107580; 
  8184.517,   107552;   8180.659,   107518;   8176.803,   107628;   8172.945,   107796; 
  8169.088,   107886;   8165.231,   107926;   8161.375,   107934;   8157.518,   107941; 
  8153.661,   108037;   8149.804,   108215;   8145.946,   108367;   8142.09,   108424; 
  8138.232,   108466;   8134.376,   108542;   8130.519,   108527;   8126.662,   108507; 
  8122.805,   108735;   8118.948,   109033;   8115.091,   109058;   8111.233,   108939; 
  8107.377,   109017;   8103.52,   109263;   8099.663,   109383;   8095.806,   109377; 
  8091.949,   109491;   8088.092,   109679;   8084.235,   109773;   8080.378,   109863; 
  8076.521,   110001;   8072.664,   110043;   8068.807,   110028;   8064.95,   110158; 
  8061.093,   110442;   8057.236,   110740;   8053.379,   110917;   8049.522,   110938; 
  8045.665,   110964;   8041.808,   111067;   8037.951,   111115;   8034.094,   111161; 
  8030.237,   111335;   8026.38,   111496;   8022.523,   111564;   8018.666,   111661; 
  8014.809,   111782;   8010.952,   111918;   8007.095,   112109;   8003.238,   112260; 
  7999.381,   112337;   7995.524,   112425;   7991.667,   112497;   7987.811,   112492; 
  7983.953,   112544;   7980.097,   112758;   7976.239,   113005;   7972.382,   113240; 
  7968.525,   113485;   7964.668,   113595;   7960.812,   113544;   7956.954,   113483; 
  7953.098,   113527;   7949.24,   113764;   7945.384,   114102;   7941.526,   114282; 
  7937.669,   114298;   7933.813,   114354;   7929.956,   114468;   7926.099,   114543; 
  7922.242,   114589;   7918.385,   114695;   7914.527,   114895;   7910.671,   115119; 
  7906.813,   115252;   7902.957,   115300;   7899.1,   115375;   7895.243,   115498; 
  7891.386,   115656;   7887.529,   115808;   7883.672,   115878;   7879.815,   115985; 
  7875.958,   116250;   7872.101,   116527;   7868.244,   116678;   7864.387,   116709; 
  7860.53,   116688;   7856.673,   116754;   7852.816,   116959;   7848.959,   117191; 
  7845.102,   117329;   7841.245,   117382;   7837.388,   117450;   7833.531,   117581; 
  7829.674,   117816;   7825.817,   118097;   7821.96,   118267;   7818.103,   118332; 
  7814.246,   118361;   7810.389,   118387;   7806.532,   118456;   7802.675,   118606; 
  7798.818,   118827;   7794.961,   119054;   7791.104,   119264;   7787.247,   119445; 
  7783.39,   119525;   7779.533,   119523;   7775.676,   119546;   7771.819,   119646; 
  7767.962,   119808;   7764.105,   120024;   7760.249,   120224;   7756.392,   120272; 
  7752.534,   120236;   7748.677,   120317;   7744.82,   120536;   7740.963,   120838; 
  7737.106,   121158;   7733.25,   121308;   7729.393,   121240;   7725.536,   121191; 
  7721.679,   121344;   7717.822,   121591;   7713.964,   121785;   7710.107,   122000; 
  7706.25,   122254;   7702.394,   122378;   7698.537,   122359;   7694.68,   122378; 
  7690.823,   122528;   7686.966,   122756;   7683.109,   123040;   7679.252,   123327; 
  7675.395,   123492;   7671.538,   123531;   7667.681,   123561;   7663.824,   123631; 
  7659.967,   123731;   7656.11,   123907;   7652.253,   124137;   7648.396,   124282; 
  7644.539,   124329;   7640.682,   124428;   7636.825,   124674;   7632.968,   124932; 
  7629.111,   125050;   7625.254,   125105;   7621.397,   125183;   7617.54,   125278; 
  7613.683,   125454;   7609.826,   125717;   7605.969,   125911;   7602.112,   125992; 
  7598.255,   126094;   7594.398,   126242;   7590.541,   126364;   7586.684,   126468; 
  7582.827,   126600;   7578.97,   126783;   7575.113,   127030;   7571.256,   127253; 
  7567.399,   127358;   7563.542,   127443;   7559.685,   127584;   7555.828,   127733; 
  7551.971,   127882;   7548.114,   128073;   7544.257,   128343;   7540.4,   128589; 
  7536.543,   128700;   7532.687,   128790;   7528.83,   128931;   7524.973,   129033; 
  7521.115,   129156;   7517.258,   129441;   7513.401,   129763;   7509.544,   129917; 
  7505.688,   129993;   7501.831,   130134;   7497.974,   130242;   7494.117,   130302; 
  7490.26,   130477;   7486.403,   130753;   7482.545,   130950;   7478.688,   131062; 
  7474.832,   131253;   7470.975,   131527;   7467.118,   131772;   7463.261,   131960; 
  7459.404,   132136;   7455.547,   132352;   7451.69,   132582;   7447.833,   132746; 
  7443.976,   132843;   7440.119,   132967;   7436.262,   133192;   7432.405,   133498; 
  7428.548,   133777;   7424.691,   133924;   7420.834,   134016;   7416.977,   134188; 
  7413.12,   134425;   7409.263,   134662;   7405.406,   134893;   7401.549,   135109; 
  7397.692,   135272;   7393.835,   135419;   7389.978,   135620;   7386.121,   135829; 
  7382.264,   136033;   7378.407,   136332;   7374.55,   136685;   7370.693,   136949; 
  7366.836,   137154;   7362.979,   137360;   7359.122,   137577;   7355.265,   137811; 
  7351.408,   138040;   7347.551,   138248;   7343.694,   138509;   7339.837,   138924; 
  7335.98,   139266;   7332.124,   139261;   7328.266,   139205;   7324.409,   139586; 
  7320.552,   140185;   7316.695,   140536;   7312.838,   140666;   7308.981,   140865; 
  7305.125,   141179;   7301.268,   141385;   7297.411,   141485;   7293.554,   141712; 
  7289.696,   142069;   7285.839,   142386;   7281.982,   142647;   7278.125,   142917; 
  7274.269,   143184;   7270.412,   143379;   7266.555,   143501;   7262.698,   143661; 
  7258.841,   143907;   7254.984,   144168;   7251.126,   144402;   7247.27,   144516; 
  7243.413,   144544;   7239.556,   144682;   7235.699,   144890;   7231.842,   145173; 
  7227.985,   145621;   7224.128,   146098;   7220.271,   146506;   7216.414,   146820; 
  7212.557,   147013;   7208.7,   147060;   7204.843,   147087;   7200.986,   147318; 
  7197.129,   147744;   7193.272,   148271;   7189.415,   148751;   7185.558,   148968; 
  7181.701,   149096;   7177.844,   149421;   7173.987,   149698;   7170.13,   149777; 
  7166.273,   149922;   7162.416,   150213;   7158.559,   150549;   7154.702,   150877; 
  7150.845,   151071;   7146.988,   151063;   7143.131,   151012;   7139.274,   151207; 
  7135.417,   151643;   7131.56,   151991;   7127.703,   152168;   7123.846,   152257; 
  7119.989,   152283;   7116.132,   152410;   7112.275,   152684;   7108.418,   152963; 
  7104.562,   153252;   7100.705,   153534;   7096.847,   153765;   7092.99,   154033; 
  7089.133,   154402;   7085.276,   154829;   7081.419,   155208;   7077.563,   155521; 
  7073.706,   155916;   7069.849,   156454;   7065.992,   156958;   7062.135,   157238; 
  7058.277,   157300;   7054.42,   157276;   7050.563,   157249;   7046.707,   157290; 
  7042.85,   157496;   7038.993,   157808;   7035.136,   158140;   7031.279,   158477; 
  7027.422,   158723;   7023.565,   158877;   7019.708,   159098;   7015.851,   159400; 
  7011.994,   159675;   7008.137,   159946;   7004.28,   160245;   7000.423,   160529; 
  6996.566,   160841;   6992.709,   161191;   6988.852,   161463;   6984.995,   161675; 
  6981.138,   161922;   6977.281,   162165;   6973.424,   162393;   6969.567,   162663; 
  6965.71,   162946;   6961.853,   163172;   6957.996,   163349;   6954.139,   163550; 
  6950.282,   163826;   6946.425,   164221;   6942.568,   164669;   6938.711,   164953; 
  6934.854,   165029;   6930.997,   165069;   6927.14,   165177;   6923.283,   165339; 
  6919.426,   165546;   6915.569,   165837;   6911.712,   166119;   6907.855,   166261; 
  6903.999,   166350;   6900.141,   166526;   6896.284,   166794;   6892.427,   167082; 
  6888.57,   167297;   6884.713,   167413;   6880.856,   167487;   6877,   167618; 
  6873.143,   167884;   6869.286,   168223;   6865.429,   168515;   6861.571,   168798; 
  6857.714,   169108;   6853.857,   169360;   6850,   169552;   6846.144,   169729; 
  6842.287,   169866;   6838.43,   170009;   6834.573,   170261;   6830.716,   170576; 
  6826.859,   170827;   6823.001,   171018;   6819.145,   171220;   6815.288,   171457; 
  6811.431,   171765;   6807.574,   172104;   6803.717,   172390;   6799.86,   172594; 
  6796.003,   172717;   6792.146,   172834;   6788.289,   173047;   6784.432,   173349; 
  6780.575,   173626;   6776.718,   173778;   6772.861,   173845;   6769.004,   173966; 
  6765.147,   174220;   6761.29,   174589;   6757.433,   174963;   6753.576,   175202; 
  6749.719,   175354;   6745.862,   175571;   6742.005,   175820;   6738.148,   176039; 
  6734.291,   176246;   6730.434,   176437;   6726.577,   176574;   6722.72,   176647; 
  6718.863,   176748;   6715.006,   177004;   6711.149,   177331;   6707.292,   177562; 
  6703.435,   177732;   6699.578,   177924;   6695.721,   178151;   6691.864,   178391; 
  6688.007,   178571;   6684.15,   178702;   6680.293,   178862;   6676.437,   179023; 
  6672.58,   179133;   6668.722,   179244;   6664.865,   179438;   6661.008,   179713; 
  6657.151,   180031;   6653.294,   180338;   6649.438,   180547;   6645.581,   180597; 
  6641.724,   180603;   6637.867,   180810;   6634.01,   181206;   6630.152,   181517; 
  6626.295,   181668;   6622.438,   181808;   6618.582,   181955;   6614.725,   182042; 
  6610.868,   182180;   6607.011,   182472;   6603.154,   182783;   6599.297,   182966; 
  6595.44,   183098;   6591.583,   183283;   6587.726,   183503;   6583.869,   183731; 
  6580.012,   183904;   6576.155,   184009;   6572.298,   184136;   6568.441,   184313; 
  6564.584,   184506;   6560.727,   184730;   6556.87,   184999;   6553.013,   185238; 
  6549.156,   185417;   6545.299,   185621;   6541.442,   185878;   6537.585,   186121; 
  6533.728,   186313;   6529.871,   186474;   6526.014,   186620;   6522.157,   186778; 
  6518.3,   186989;   6514.443,   187210;   6510.586,   187404;   6506.729,   187636; 
  6502.872,   187932;   6499.015,   188192;   6495.158,   188360;   6491.301,   188504; 
  6487.444,   188691;   6483.587,   188931;   6479.73,   189213;   6475.873,   189508; 
  6472.016,   189759;   6468.159,   189910;   6464.302,   190032;   6460.445,   190288; 
  6456.588,   190623;   6452.731,   190866;   6448.875,   191048;   6445.018,   191210; 
  6441.161,   191321;   6437.303,   191467;   6433.446,   191707;   6429.589,   191981; 
  6425.732,   192267;   6421.875,   192587;   6418.019,   192892;   6414.162,   193121; 
  6410.305,   193311;   6406.448,   193506;   6402.591,   193678;   6398.733,   193844; 
  6394.876,   194075;   6391.02,   194320;   6387.163,   194499;   6383.306,   194674; 
  6379.449,   194880;   6375.592,   195114;   6371.735,   195392;   6367.878,   195613; 
  6364.021,   195743;   6360.164,   195978;   6356.307,   196351;   6352.45,   196610; 
  6348.593,   196673;   6344.736,   196736;   6340.879,   196906;   6337.022,   197193; 
  6333.165,   197585;   6329.308,   197912;   6325.451,   198070;   6321.594,   198226; 
  6317.737,   198440;   6313.88,   198589;   6310.023,   198718;   6306.166,   198900; 
  6302.309,   199089;   6298.452,   199366;   6294.595,   199799;   6290.738,   200185; 
  6286.881,   200398;   6283.024,   200578;   6279.167,   200764;   6275.31,   200894; 
  6271.453,   201063;   6267.596,   201272;   6263.739,   201439;   6259.882,   201618; 
  6256.025,   201783;   6252.168,   201889;   6248.312,   202070;   6244.454,   202367; 
  6240.597,   202605;   6236.74,   202738;   6232.883,   202951;   6229.026,   203258; 
  6225.169,   203469;   6221.313,   203567;   6217.456,   203670;   6213.599,   203776; 
  6209.742,   203852;   6205.884,   203983;   6202.027,   204227;   6198.17,   204533; 
  6194.313,   204794;   6190.457,   204978;   6186.6,   205142;   6182.743,   205299; 
  6178.886,   205451;   6175.029,   205654;   6171.172,   205943;   6167.314,   206258; 
  6163.458,   206493;   6159.601,   206654;   6155.744,   206831;   6151.887,   207067; 
  6148.03,   207375;   6144.173,   207755;   6140.316,   208172;   6136.459,   208522; 
  6132.602,   208704;   6128.745,   208787;   6124.888,   208950;   6121.031,   209242; 
  6117.174,   209542;   6113.317,   209806;   6109.46,   210152;   6105.603,   210550; 
  6101.746,   210829;   6097.889,   211020;   6094.032,   211240;   6090.175,   211419; 
  6086.318,   211533;   6082.461,   211707;   6078.604,   211944;   6074.747,   212220; 
  6070.89,   212538;   6067.033,   212824;   6063.176,   213049;   6059.319,   213254; 
  6055.462,   213454;   6051.605,   213722;   6047.748,   214095;   6043.891,   214409; 
  6040.034,   214615;   6036.177,   214914;   6032.32,   215325;   6028.463,   215666; 
  6024.606,   215937;   6020.75,   216281;   6016.893,   216696;   6013.036,   217077; 
  6009.178,   217419;   6005.321,   217773;   6001.464,   218166;   5997.607,   218607; 
  5993.75,   219066;   5989.894,   219458;   5986.037,   219763;   5982.18,   220095; 
  5978.323,   220559;   5974.466,   221134;   5970.608,   221714;   5966.751,   222221; 
  5962.895,   222639;   5959.038,   223022;   5955.181,   223434;   5951.324,   223885; 
  5947.467,   224409;   5943.61,   225037;   5939.753,   225721;   5935.896,   226444; 
  5932.039,   227253;   5928.182,   228159;   5924.325,   229212;   5920.468,   230547; 
  5916.611,   232081;   5912.754,   233452;   5908.897,   234421;   5905.04,   235058; 
  5901.183,   235499;   5897.326,   235794;   5893.469,   236034;   5889.612,   236344; 
  5885.755,   236800;   5881.898,   237508;   5878.041,   238501;   5874.184,   239582; 
  5870.327,   240576;   5866.47,   241482;   5862.613,   242186;   5858.756,   242543; 
  5854.899,   242699;   5851.042,   242826;   5847.185,   242889;   5843.328,   242883; 
  5839.471,   242862;   5835.614,   242836;   5831.757,   242888;   5827.9,   243140; 
  5824.043,   243600;   5820.187,   244236;   5816.329,   244953;   5812.472,   245631; 
  5808.615,   246271;   5804.758,   246952;   5800.901,   247645;   5797.044,   248198; 
  5793.188,   248532;   5789.331,   248625;   5785.474,   248502;   5781.617,   248354; 
  5777.759,   248341;   5773.902,   248466;   5770.045,   248751;   5766.188,   249149; 
  5762.332,   249516;   5758.475,   249789;   5754.618,   249912;   5750.761,   249746; 
  5746.904,   249296;   5743.047,   248772;   5739.189,   248339;   5735.333,   248021; 
  5731.476,   247795;   5727.619,   247686;   5723.762,   247700;   5719.905,   247723; 
  5716.048,   247740;   5712.191,   247862;   5708.334,   248075;   5704.477,   248338; 
  5700.62,   248635;   5696.763,   248845;   5692.906,   248924;   5689.049,   249042; 
  5685.192,   249277;   5681.335,   249587;   5677.478,   250030;   5673.621,   250545; 
  5669.764,   250912;   5665.907,   251168;   5662.05,   251487;   5658.193,   251830; 
  5654.336,   252117;   5650.479,   252337;   5646.622,   252499;   5642.765,   252650; 
  5638.908,   252766;   5635.051,   252813;   5631.194,   252828;   5627.337,   252842; 
  5623.48,   252949;   5619.623,   253209;   5615.766,   253489;   5611.909,   253690; 
  5608.052,   253825;   5604.195,   253849;   5600.338,   253816;   5596.481,   254009; 
  5592.625,   254549;   5588.768,   255204;   5584.91,   255704;   5581.053,   255997; 
  5577.196,   256156;   5573.339,   256290;   5569.482,   256557;   5565.625,   257003; 
  5561.769,   257517;   5557.912,   257963;   5554.055,   258246;   5550.198,   258419; 
  5546.34,   258627;   5542.483,   258962;   5538.626,   259442;   5534.77,   260020; 
  5530.913,   260564;   5527.056,   260908;   5523.199,   261051;   5519.342,   261213; 
  5515.485,   261599;   5511.628,   262165;   5507.771,   262667;   5503.914,   263004; 
  5500.057,   263254;   5496.2,   263412;   5492.343,   263598;   5488.486,   264106; 
  5484.629,   264772;   5480.772,   265173;   5476.915,   265352;   5473.058,   265568; 
  5469.201,   265797;   5465.344,   266056;   5461.487,   266487;   5457.63,   266914; 
  5453.773,   267137;   5449.916,   267267;   5446.059,   267397;   5442.202,   267571; 
  5438.345,   267845;   5434.488,   268130;   5430.631,   268390;   5426.774,   268777; 
  5422.917,   269218;   5419.06,   269422;   5415.203,   269381;   5411.346,   269542; 
  5407.489,   270154;   5403.632,   270733;   5399.775,   270920;   5395.918,   270969; 
  5392.061,   271174;   5388.204,   271463;   5384.347,   271828;   5380.49,   272223; 
  5376.633,   272561;   5372.776,   272975;   5368.919,   273433;   5365.063,   273803; 
  5361.206,   274095;   5357.349,   274341;   5353.491,   274667;   5349.634,   275054; 
  5345.777,   275296;   5341.92,   275463;   5338.063,   275839;   5334.207,   276426; 
  5330.35,   277069;   5326.493,   277814;   5322.636,   278551;   5318.779,   279086; 
  5314.921,   279469;   5311.064,   279822;   5307.208,   280341;   5303.351,   281076; 
  5299.494,   281820;   5295.637,   282474;   5291.78,   283103;   5287.923,   283828; 
  5284.066,   284717;   5280.209,   285713;   5276.352,   286593;   5272.495,   287217; 
  5268.638,   287815;   5264.781,   288677;   5260.924,   289723;   5257.067,   290706; 
  5253.21,   291577;   5249.353,   292386;   5245.496,   293270;   5241.639,   294267; 
  5237.782,   295197;   5233.925,   295931;   5230.068,   296493;   5226.211,   297179; 
  5222.354,   298151;   5218.497,   299028;   5214.64,   299497;   5210.783,   299692; 
  5206.926,   299991;   5203.069,   300564;   5199.212,   301202;   5195.355,   301718; 
  5191.498,   302042;   5187.641,   302181;   5183.784,   302272;   5179.927,   302503; 
  5176.07,   302906;   5172.213,   303390;   5168.356,   303841;   5164.5,   304149; 
  5160.642,   304312;   5156.785,   304406;   5152.928,   304523;   5149.071,   304713; 
  5145.214,   304952;   5141.357,   305235;   5137.5,   305561;   5133.644,   305848; 
  5129.787,   306058;   5125.93,   306300;   5122.072,   306678;   5118.215,   307087; 
  5114.358,   307375;   5110.501,   307585;   5106.645,   307826;   5102.788,   308091; 
  5098.931,   308351;   5095.074,   308720;   5091.217,   309267;   5087.36,   309791; 
  5083.503,   310197;   5079.646,   310670;   5075.789,   311196;   5071.932,   311658; 
  5068.075,   312162;   5064.218,   312713;   5060.361,   313184;   5056.504,   313629; 
  5052.647,   314172;   5048.79,   314822;   5044.933,   315516;   5041.076,   316189; 
  5037.219,   316799;   5033.362,   317393;   5029.505,   318057;   5025.648,   318793; 
  5021.791,   319605;   5017.934,   320464;   5014.077,   321254;   5010.22,   321934; 
  5006.363,   322596;   5002.506,   323366;   4998.649,   324349;   4994.792,   325511; 
  4990.935,   326660;   4987.078,   327710;   4983.221,   328715;   4979.364,   329680; 
  4975.507,   330620;   4971.65,   331697;   4967.793,   333088;   4963.936,   334658; 
  4960.079,   336112;   4956.222,   337364;   4952.365,   338483;   4948.508,   339632; 
  4944.651,   340966;   4940.794,   342507;   4936.938,   344201;   4933.081,   345950; 
  4929.224,   347635;   4925.366,   349140;   4921.509,   350460;   4917.652,   351787; 
  4913.795,   353276;   4909.938,   354868;   4906.082,   356415;   4902.225,   357882; 
  4898.368,   359262;   4894.511,   360459;   4890.654,   361627;   4886.796,   363089; 
  4882.939,   364778;   4879.083,   366404;   4875.226,   367840;   4871.369,   369051; 
  4867.512,   370103;   4863.655,   371240;   4859.798,   372586;   4855.941,   373962; 
  4852.084,   375249;   4848.227,   376452;   4844.37,   377492;   4840.513,   378444; 
  4836.656,   379563;   4832.799,   380929;   4828.942,   382359;   4825.085,   383664; 
  4821.228,   384834;   4817.371,   385952;   4813.514,   387072;   4809.657,   388243; 
  4805.8,   389564;   4801.943,   391032;   4798.086,   392424;   4794.229,   393542; 
  4790.372,   394455;   4786.515,   395450;   4782.658,   396665;   4778.801,   397951; 
  4774.944,   399204;   4771.087,   400405;   4767.23,   401544;   4763.373,   402660; 
  4759.516,   403801;   4755.659,   405144;   4751.802,   406750;   4747.945,   408329; 
  4744.088,   409711;   4740.231,   411040;   4736.375,   412500;   4732.517,   414183; 
  4728.66,   416006;   4724.803,   417765;   4720.946,   419385;   4717.089,   420974; 
  4713.232,   422646;   4709.375,   424456;   4705.519,   426270;   4701.662,   427765; 
  4697.805,   428817;   4693.947,   429617;   4690.09,   430399;   4686.233,   431170; 
  4682.376,   431770;   4678.52,   432133;   4674.663,   432286;   4670.806,   432238; 
  4666.949,   432006;   4663.092,   431562;   4659.235,   430897;   4655.377,   430057; 
  4651.521,   428993;   4647.664,   427750;   4643.807,   426517;   4639.95,   425252; 
  4636.093,   423783;   4632.236,   422070;   4628.379,   420101;   4624.522,   417935; 
  4620.665,   415795;   4616.808,   413712;   4612.951,   411493;   4609.094,   409169; 
  4605.237,   406864;   4601.38,   404602;   4597.523,   402539;   4593.666,   400744; 
  4589.809,   399102;   4585.952,   397581;   4582.095,   396171;   4578.238,   394765; 
  4574.381,   393354;   4570.524,   392078;   4566.667,   390898;   4562.81,   389656; 
  4558.953,   388407;   4555.096,   387236;   4551.239,   386136;   4547.382,   385241; 
  4543.525,   384699;   4539.668,   384453;   4535.811,   384376;   4531.954,   384435; 
  4528.097,   384448;   4524.24,   384067;   4520.383,   383371;   4516.526,   382833; 
  4512.669,   382599;   4508.813,   382476;   4504.956,   382463;   4501.098,   382654; 
  4497.241,   382909;   4493.384,   383193;   4489.527,   383768;   4485.67,   384677; 
  4481.813,   385618;   4477.957,   386365;   4474.1,   387043;   4470.243,   387992; 
  4466.386,   389303;   4462.528,   390774;   4458.671,   392187;   4454.814,   393464; 
  4450.958,   394827;   4447.101,   396513;   4443.244,   398481;   4439.387,   400742; 
  4435.53,   403386;   4431.673,   406272;   4427.816,   409266;   4423.958,   412471; 
  4420.102,   415889;   4416.245,   419340;   4412.388,   422797;   4408.531,   426228; 
  4404.674,   429411;   4400.817,   432345;   4396.96,   435161;   4393.103,   437488; 
  4389.246,   438754;   4385.389,   439126;   4381.532,   439189;   4377.675,   439098; 
  4373.818,   438950;   4369.961,   439027;   4366.104,   439384;   4362.247,   440026; 
  4358.39,   441127;   4354.533,   442960;   4350.676,   445713;   4346.819,   449325; 
  4342.962,   453721;   4339.105,   458741;   4335.248,   463722;   4331.391,   467857; 
  4327.534,   470854;   4323.677,   472801;   4319.82,   474000;   4315.963,   474892; 
  4312.106,   475589;   4308.249,   475912;   4304.392,   475784;   4300.535,   475415; 
  4296.678,   475305;   4292.821,   475873;   4288.964,   477084;   4285.107,   478587; 
  4281.25,   480258;   4277.394,   482073;   4273.537,   483826;   4269.679,   485615; 
  4265.822,   487515;   4261.965,   489461;   4258.108,   491900;   4254.251,   494971; 
  4250.395,   497846;   4246.538,   499676;   4242.681,   500319;   4238.824,   500103; 
  4234.967,   499530;   4231.109,   499177;   4227.252,   499186;   4223.396,   499484; 
  4219.539,   500092;   4215.682,   500522;   4211.825,   500466;   4207.968,   500338; 
  4204.111,   500373;   4200.254,   500565;   4196.397,   500505;   4192.54,   499534; 
  4188.683,   498389;   4184.826,   498429;   4180.969,   499689;   4177.112,   501534; 
  4173.255,   503201;   4169.398,   504084;   4165.541,   504348;   4161.684,   504413; 
  4157.827,   504462;   4153.97,   504325;   4150.113,   504260;   4146.256,   504625; 
  4142.399,   504735;   4138.542,   504853;   4134.685,   506033;   4130.828,   507362; 
  4126.971,   508016;   4123.114,   508758;   4119.257,   509137;   4115.4,   508673; 
  4111.543,   508934;   4107.686,   510383;   4103.829,   511490;   4099.972,   511188; 
  4096.115,   510160;   4092.258,   510380;   4088.401,   512487;   4084.544,   514518; 
  4080.688,   514945;   4076.831,   515403;   4072.973,   517952;   4069.116,   521800; 
  4065.259,   525259;   4061.402,   527408;   4057.545,   527578;   4053.688,   525558; 
  4049.832,   523044;   4045.975,   522477;   4042.118,   522221;   4038.261,   519176; 
  4034.403,   516548;   4030.546,   517616;   4026.689,   519141;   4022.833,   520124; 
  4018.976,   523055;   4015.119,   526997;   4011.262,   529274;   4007.405,   527835; 
  4003.548,   523828;   3999.691,   521750; 
  ##END